function [data] = loadMoarRookle07ARamanData()

%This is for the "thick flake" and was taken before solvent washing

data = [
1682.51	7.85
1681.57	7.75
1680.64	7.8
1679.7	8.25
1678.76	7.5
1677.83	8.15
1676.89	7.7
1675.95	7.9
1675.01	8.45
1674.08	7.5
1673.14	7.4
1672.2	7.65
1671.26	7.8
1670.33	8.4
1669.39	7.9
1668.45	8.1
1667.51	7.95
1666.57	8.3
1665.63	7.8
1664.7	7.6
1663.76	7.7
1662.82	8.1
1661.88	7.5
1660.94	7.7
1660	8
1659.06	7.55
1658.12	8.05
1657.18	7.7
1656.24	7.8
1655.3	7.95
1654.36	7.5
1653.42	8
1652.48	7.75
1651.54	7.75
1650.6	8
1649.66	7.6
1648.72	7.35
1647.78	7.75
1646.84	7.9
1645.9	8
1644.96	7.9
1644.02	8.1
1643.08	7.85
1642.14	7.75
1641.19	7.8
1640.25	7.55
1639.31	8.1
1638.37	8
1637.43	7.6
1636.49	8.15
1635.54	7.55
1634.6	8.15
1633.66	7.6
1632.72	7.9
1631.78	8.15
1630.83	7.75
1629.89	7.55
1628.95	8.05
1628	7.9
1627.06	7.9
1626.12	8.15
1625.18	7.6
1624.23	7.5
1623.29	8.15
1622.35	8.15
1621.4	7.7
1620.46	7.5
1619.51	7.6
1618.57	7.55
1617.63	7.8
1616.68	8.2
1615.74	7.3
1614.79	7.9
1613.85	8.1
1612.9	7.75
1611.96	7.7
1611.02	7.85
1610.07	7.85
1609.13	7.65
1608.18	7.75
1607.23	7.7
1606.29	7.5
1605.34	7.65
1604.4	7.65
1603.45	7.65
1602.51	7.85
1601.56	7.95
1600.61	8.05
1599.67	7.6
1598.72	8.2
1597.78	7.4
1596.83	7.4
1595.88	8.05
1594.94	7.9
1593.99	7.7
1593.04	7.65
1592.1	7.8
1591.15	7.95
1590.2	7.65
1589.25	7.8
1588.31	7.7
1587.36	7.85
1586.41	7.35
1585.46	7.9
1584.52	7.95
1583.57	7.7
1582.62	7.9
1581.67	7.8
1580.72	7.95
1579.77	7.4
1578.83	7.85
1577.88	7.95
1576.93	7.8
1575.98	8.15
1575.03	7.7
1574.08	7.85
1573.13	7.7
1572.18	7.35
1571.23	7.9
1570.28	8.05
1569.33	7.95
1568.38	7.45
1567.43	7.7
1566.48	8.15
1565.53	7.35
1564.58	7.65
1563.63	7.75
1562.68	7.85
1561.73	7.5
1560.78	8.45
1559.83	7.95
1558.88	7.6
1557.93	7.7
1556.98	8.1
1556.03	7.6
1555.07	8
1554.12	7.95
1553.17	8.05
1552.22	7.55
1551.27	7.5
1550.32	7.95
1549.36	8.15
1548.41	7.7
1547.46	7.7
1546.51	7.85
1545.55	7.2
1544.6	8
1543.65	7.9
1542.7	7.45
1541.74	7.3
1540.79	7.7
1539.84	7.4
1538.88	7.7
1537.93	8
1536.98	7.85
1536.02	7.55
1535.07	7.75
1534.12	7.75
1533.16	7.55
1532.21	7.75
1531.25	7.75
1530.3	7.65
1529.35	7.5
1528.39	7.65
1527.44	7.85
1526.48	7.45
1525.53	7.5
1524.57	7.8
1523.62	7.7
1522.66	7.75
1521.71	7.95
1520.75	6.9
1519.8	7.35
1518.84	7.3
1517.88	7.8
1516.93	7.45
1515.97	7.4
1515.02	7.45
1514.06	7.75
1513.1	7.45
1512.15	7.35
1511.19	7.15
1510.23	7.6
1509.28	7.05
1508.32	8.15
1507.36	7.45
1506.41	7.4
1505.45	7.1
1504.49	7.2
1503.53	7.35
1502.58	7.4
1501.62	7.7
1500.66	8.05
1499.71	7.6
1498.75	7.45
1497.79	7.45
1496.83	7.75
1495.87	7.8
1494.91	7.15
1493.96	7.65
1493	7.65
1492.04	7.7
1491.08	7.65
1490.12	7.65
1489.16	7.6
1488.2	7.7
1487.24	7.4
1486.28	7.65
1485.32	7
1484.36	7.25
1483.41	7.55
1482.45	7
1481.48	7.5
1480.52	7.7
1479.56	7.6
1478.6	7.1
1477.64	7.7
1476.68	7.35
1475.72	7.5
1474.76	7.45
1473.8	7.45
1472.84	7.25
1471.88	7.3
1470.92	7.35
1469.96	7.5
1469	7.45
1468.03	7.1
1467.07	7.7
1466.11	7.85
1465.15	7.7
1464.19	7.05
1463.22	7.35
1462.26	7.75
1461.3	7.6
1460.34	7.55
1459.37	7.1
1458.41	7.15
1457.45	7.25
1456.49	7.75
1455.52	6.85
1454.56	7.25
1453.6	7.45
1452.63	7.95
1451.67	7.4
1450.71	7.35
1449.74	7.1
1448.78	7.5
1447.82	7.6
1446.85	7.3
1445.89	7.15
1444.92	7.7
1443.96	7.85
1442.99	7.4
1442.03	7.95
1441.06	7.45
1440.1	7.2
1439.14	7.8
1438.17	7.1
1437.2	7.15
1436.24	7.6
1435.27	7.45
1434.31	7.45
1433.34	7.5
1432.38	7.15
1431.41	7.2
1430.44	7.3
1429.48	7.5
1428.51	7.9
1427.55	7.75
1426.58	7.4
1425.61	7.7
1424.65	7.15
1423.68	7.25
1422.71	7.3
1421.75	7.75
1420.78	7.7
1419.81	7.3
1418.84	7.75
1417.88	7.3
1416.91	7.55
1415.94	7.4
1414.97	7.25
1414.01	7.8
1413.04	7.55
1412.07	7
1411.1	7.1
1410.13	7.55
1409.16	7.5
1408.2	7.5
1407.23	7.2
1406.26	7.75
1405.29	7.7
1404.32	7.6
1403.35	7.8
1402.38	7.65
1401.41	7.4
1400.44	7.25
1399.47	7.5
1398.5	7.2
1397.53	7.3
1396.56	7.05
1395.59	7.6
1394.62	7.4
1393.65	7.55
1392.68	7.7
1391.71	7.05
1390.74	7.75
1389.77	7.25
1388.8	7.3
1387.83	7.15
1386.86	7.25
1385.89	7.25
1384.92	7.15
1383.95	7.3
1382.97	7.2
1382	7.4
1381.03	7.5
1380.06	7.25
1379.09	7.25
1378.11	7.4
1377.14	7.25
1376.17	7.35
1375.2	6.6
1374.22	7.4
1373.25	7.15
1372.28	7.55
1371.31	7.2
1370.33	7.45
1369.36	7.45
1368.39	7.35
1367.41	7.85
1366.44	7.7
1365.47	7.55
1364.49	7.7
1363.52	7.45
1362.54	7.15
1361.57	7.35
1360.6	7.35
1359.62	7.75
1358.65	7.3
1357.67	7.2
1356.7	7.4
1355.72	6.9
1354.75	7.45
1353.77	7.6
1352.8	6.8
1351.82	7.25
1350.85	7.2
1349.87	7.55
1348.9	6.95
1347.92	7.45
1346.95	7.1
1345.97	7.3
1344.99	7
1344.02	7.3
1343.04	6.8
1342.06	7.25
1341.09	7.45
1340.11	7.4
1339.14	7.2
1338.16	6.85
1337.18	7.45
1336.2	7.4
1335.23	7.5
1334.25	7.05
1333.27	7.2
1332.3	7.2
1331.32	7.25
1330.34	7.4
1329.36	7.6
1328.38	7.4
1327.41	7.65
1326.43	7.05
1325.45	7.3
1324.47	7.35
1323.49	7.05
1322.51	7.5
1321.54	7.6
1320.56	7.1
1319.58	7.5
1318.6	7.3
1317.62	7.7
1316.64	7.2
1315.66	7.2
1314.68	7.05
1313.7	7.45
1312.72	7.1
1311.74	7.5
1310.76	7.65
1309.78	7.05
1308.8	7.7
1307.82	7.25
1306.84	7.55
1305.86	7.4
1304.88	7.3
1303.9	7.1
1302.92	7.15
1301.93	7.45
1300.95	7
1299.97	7
1298.99	7.4
1298.01	6.9
1297.03	7.35
1296.05	7.05
1295.06	7.05
1294.08	6.75
1293.1	7.15
1292.12	7.35
1291.13	7.05
1290.15	7.6
1289.17	7.3
1288.19	7.45
1287.2	8
1286.22	7.35
1285.24	7.05
1284.25	7
1283.27	7.1
1282.29	7.2
1281.3	7.1
1280.32	7.1
1279.34	7.15
1278.35	7.25
1277.37	7.4
1276.39	7
1275.4	7.35
1274.42	7.2
1273.43	7.1
1272.45	7
1271.46	6.6
1270.48	7.4
1269.49	7.4
1268.51	6.95
1267.52	7.6
1266.54	7.2
1265.55	7.45
1264.57	7.4
1263.58	7.15
1262.6	7.35
1261.61	6.85
1260.62	7.55
1259.64	7.25
1258.65	7.05
1257.66	7.2
1256.68	7.2
1255.69	7.45
1254.71	7.25
1253.72	7.2
1252.73	7.15
1251.74	7.7
1250.76	6.9
1249.77	7.05
1248.78	7.1
1247.79	7.15
1246.81	7.2
1245.82	7.35
1244.83	7.15
1243.84	7.25
1242.85	7.5
1241.87	6.9
1240.88	7.45
1239.89	7.55
1238.9	7.1
1237.91	7.2
1236.92	7.2
1235.93	7.15
1234.95	7.1
1233.96	7.15
1232.97	6.9
1231.98	7.3
1230.99	7.25
1230	7.45
1229.01	8.1
1228.02	7.5
1227.03	7.3
1226.04	7.5
1225.05	7.25
1224.06	7.3
1223.07	7.5
1222.08	7.25
1221.09	6.85
1220.1	7.45
1219.1	7.2
1218.12	7.6
1217.12	7.7
1216.13	7.75
1215.14	7.95
1214.15	7.55
1213.16	7.75
1212.17	7.25
1211.17	7.6
1210.18	7.2
1209.19	7.2
1208.2	7.45
1207.2	7.25
1206.21	7.4
1205.22	7.55
1204.23	7.35
1203.23	7.6
1202.24	6.9
1201.25	7.45
1200.26	7.6
1199.26	7.55
1198.27	7.45
1197.28	7.35
1196.28	7.75
1195.29	7.25
1194.29	7.2
1193.3	7.6
1192.31	7.4
1191.31	7.65
1190.32	7.1
1189.32	7.75
1188.33	6.75
1187.33	7.4
1186.34	6.8
1185.34	7.5
1184.35	7.1
1183.35	7.35
1182.36	7.5
1181.36	7.15
1180.37	7.6
1179.37	7.15
1178.38	7.15
1177.38	7.35
1176.38	7.25
1175.39	7.2
1174.39	7.3
1173.4	7.15
1172.4	7.35
1171.4	6.8
1170.41	7.35
1169.41	7.55
1168.41	6.6
1167.42	7.6
1166.42	6.8
1165.42	7.05
1164.42	7.05
1163.42	7.2
1162.43	7.15
1161.43	7.6
1160.43	6.85
1159.43	7.45
1158.44	7.5
1157.44	6.85
1156.44	7.35
1155.44	7.05
1154.44	7.65
1153.44	7.1
1152.44	7
1151.45	7.1
1150.45	7.1
1149.45	7.05
1148.45	7.5
1147.45	7.65
1146.45	7.65
1145.45	7.1
1144.45	7.2
1143.45	7.25
1142.45	7.4
1141.45	7.15
1140.45	6.85
1139.45	7
1138.45	7.2
1137.45	7.55
1136.45	7.35
1135.45	7.4
1134.44	7.15
1133.44	7.65
1132.44	7.2
1131.44	7.2
1130.44	7.5
1129.44	7.4
1128.44	7.2
1127.44	7
1126.43	7.6
1125.43	7.15
1124.43	7
1123.43	7.45
1122.42	7.55
1121.42	7.4
1120.42	7.15
1119.42	7.7
1118.41	7
1117.41	6.8
1116.41	7.35
1115.4	7.25
1114.4	7.3
1113.4	7.55
1112.39	7.35
1111.39	7.2
1110.39	7.4
1109.38	7.4
1108.38	7.15
1107.37	7.5
1106.37	7.5
1105.36	6.95
1104.36	7.65
1103.35	7.15
1102.35	7.05
1101.34	7.05
1100.34	7.3
1099.33	7.25
1098.33	7.35
1097.32	7.85
1096.32	7.2
1095.31	7.05
1094.31	7.3
1093.3	7.5
1092.3	7.3
1091.29	7.35
1090.28	6.9
1089.28	7
1088.27	7.5
1087.26	6.95
1086.26	7.05
1085.25	7
1084.24	7.25
1083.23	7.05
1082.23	6.85
1081.22	7.35
1080.21	6.85
1079.2	7.5
1078.2	7.1
1077.19	7.5
1076.18	7.3
1075.17	7.05
1074.17	7.2
1073.16	7.2
1072.15	7.15
1071.14	7.05
1070.13	7.25
1069.12	7.35
1068.11	7.45
1067.1	7.3
1066.1	7.15
1065.09	7.2
1064.08	7
1063.07	7.5
1062.06	7.5
1061.05	7.45
1060.04	7
1059.03	7.4
1058.02	7.25
1057.01	7.1
1056	7.8
1054.99	7.05
1053.98	7.3
1052.97	7.05
1051.96	7.35
1050.94	7.15
1049.93	7.25
1048.92	7.35
1047.91	7.3
1046.9	7.3
1045.89	7.25
1044.88	7.35
1043.86	7.45
1042.85	7.35
1041.84	7.75
1040.83	7.45
1039.82	7.05
1038.8	7.8
1037.79	6.95
1036.78	7.5
1035.76	7.75
1034.75	7.5
1033.74	7.8
1032.72	7.65
1031.71	7.5
1030.7	7.3
1029.69	7.45
1028.67	7.3
1027.66	7.4
1026.64	7.6
1025.63	7.45
1024.62	7.95
1023.6	7.5
1022.59	7.7
1021.57	7.55
1020.56	7.6
1019.54	7.4
1018.53	7.75
1017.51	7.9
1016.5	7.5
1015.48	7.6
1014.47	7.6
1013.45	7.9
1012.44	7.95
1011.42	7.35
1010.4	7.7
1009.39	7.95
1008.37	7.6
1007.36	7.8
1006.34	7.65
1005.32	8.05
1004.31	7.35
1003.29	7.9
1002.27	7.85
1001.26	7.8
1000.24	8.3
999.223	7.9
998.206	8.15
997.189	8.05
996.17	7.75
995.153	7.75
994.136	8.4
993.117	8.6
992.099	8.85
991.082	8.9
990.062	8.55
989.044	8.8
988.026	9.05
987.007	9.05
985.988	8.85
984.97	9.45
983.95	9.65
982.931	9.45
981.913	9.5
980.892	9.3
979.873	9.6
978.854	9.25
977.833	9.25
976.814	9.35
975.795	9.9
974.774	9.5
973.754	9.45
972.733	9.2
971.713	9.65
970.693	9.1
969.671	9.35
968.651	9.55
967.631	9.6
966.608	9.3
965.588	9.15
964.566	9.3
963.545	9.45
962.524	9.45
961.501	9.3
960.48	9.45
959.457	9.75
958.436	9.2
957.412	9.15
956.391	9.55
955.369	9.85
954.346	9.35
953.324	9.05
952.3	9.25
951.278	9.65
950.254	10.1
949.231	9.35
948.209	9.15
947.184	9.6
946.162	9.45
945.137	9.6
944.114	9.35
943.089	9.3
942.066	9.7
941.041	9.55
940.017	9.5
938.992	9.15
937.968	9.2
936.943	9.1
935.919	8.6
934.893	8.55
933.869	8.65
932.843	8.55
931.818	8.15
930.792	8.65
929.767	8.25
928.741	8.2
927.716	7.5
926.689	7.9
925.664	7.55
924.637	8.25
923.612	7.9
922.584	8
921.559	8
920.531	7.85
919.506	7.7
918.478	8
917.452	7.7
916.424	7.95
915.398	7.85
914.369	7.6
913.343	8.1
912.314	7.65
911.286	7.95
910.259	7.65
909.23	8.15
908.203	7.9
907.174	7.7
906.147	8.4
905.117	8.35
904.09	7.55
903.06	7.9
902.031	7.5
901.003	7.75
899.973	7.65
898.945	8.15
897.915	7.95
896.884	7.7
895.856	7.55
894.825	8.15
893.797	7.2
892.766	7.9
891.735	7.55
890.706	7.9
889.675	8.05
888.646	7.8
887.614	7.95
886.583	8.05
885.553	7.7
884.521	7.8
883.49	7.85
882.46	8
881.428	7.65
880.397	7.85
879.365	7.85
878.333	8
877.302	7.9
876.269	8.2
875.237	7.65
874.206	7.85
873.173	7.9
872.139	7.85
871.108	7.65
870.075	7.75
869.041	8.05
868.01	7.8
866.976	7.65
865.942	7.45
864.91	7.7
863.876	7.95
862.842	7.75
861.807	7.95
860.775	7.85
859.74	7.7
858.706	7.6
857.673	8.25
856.638	7.8
855.603	7.75
854.57	8.15
853.534	7.55
852.499	7.75
851.464	8.25
850.43	7.5
849.394	7.65
848.358	8
847.322	8.1
846.288	7.65
845.252	7.9
844.215	7.95
843.179	7.9
842.144	7.7
841.108	7.65
840.071	7.6
839.034	7.85
837.999	7.5
836.962	7.85
835.924	7.45
834.887	7.8
833.851	7.6
832.814	8.1
831.776	8.45
830.738	8.1
829.702	7.5
828.664	7.85
827.625	7.75
826.587	8.05
825.548	7.65
824.512	8
823.473	7.2
822.434	7.6
821.395	7.9
820.356	7.85
819.317	7.95
818.279	8.05
817.24	8
816.2	7.75
815.161	7.3
814.121	7.55
813.083	7.8
812.043	7.6
811.003	7.65
809.962	7.7
808.922	7.95
807.881	7.2
806.843	8.2
805.802	7.95
804.761	7.95
803.72	7.8
802.679	8
801.637	7.7
800.596	8.2
799.554	7.65
798.515	7.5
797.473	7.8
796.431	7.85
795.389	7.85
794.347	7.75
793.305	8.05
792.262	7.7
791.22	8
790.179	7.85
789.137	7.9
788.094	7.85
787.051	7.6
786.008	7.95
784.964	7.3
783.921	7.4
782.878	7.65
781.834	7.55
780.79	8.05
779.747	7.85
778.705	7.85
777.661	7.35
776.616	7.85
775.572	7.55
774.528	7.85
773.483	7.8
772.439	7.25
771.394	7.85
770.349	7.95
769.304	7.65
768.259	7.6
767.213	7.4
766.168	8.05
765.122	8.6
764.077	7.95
763.031	8.2
761.985	7.6
760.939	7.6
759.893	7.8
758.847	8.15
757.801	7.7
756.754	7.85
755.707	7.65
754.661	7.75
753.614	7.8
752.567	7.55
751.52	7.3
750.473	7.9
749.425	8
748.378	7.85
747.33	7.75
746.283	7.35
745.235	7.7
744.187	7.9
743.139	7.65
742.091	7.6
741.042	7.8
739.994	8.05
738.945	7.6
737.897	7.85
736.848	8.3
735.799	7.75
734.75	7.55
733.701	7.85
732.651	7.45
731.602	7.45
730.553	7.95
729.503	7.7
728.453	7.6
727.403	7.6
726.353	7.95
725.301	7.7
724.251	7.65
723.2	8
722.15	7.75
721.099	7.7
720.049	7.9
718.998	7.5
717.947	7.9
716.896	8.1
715.844	7.8
714.793	7.9
713.74	7.7
712.688	7.65
711.636	8
710.584	7.75
709.532	8.1
708.48	7.5
707.428	7.7
706.376	7.45
705.323	7.8
704.269	7.9
703.216	7.35
702.163	7.65
701.11	7.85
700.057	8.25
699.004	7.75
697.951	8.2
696.895	8
695.842	8
694.788	7.9
693.734	7.75
692.68	7.8
691.626	7.85
690.57	7.55
689.516	7.65
688.461	7.4
687.407	8.25
686.352	7.95
685.297	8.1
684.24	7.95
683.185	8.05
682.13	8.25
681.075	8.1
680.02	8.1
678.962	8.3
677.906	8
676.851	8.4
675.795	7.75
674.739	7.8
673.681	8.4
672.624	8.1
671.568	7.9
670.511	8.35
669.455	8.15
668.396	8.1
667.339	8.45
666.282	8.25
665.225	7.9
664.166	8.25
663.108	8.35
662.051	8.55
660.993	7.95
659.934	8.75
658.876	8.1
657.818	8.25
656.76	8.3
655.699	8.75
654.641	8.55
653.582	8.65
652.524	8
651.463	8.65
650.404	8.75
649.345	8.55
648.286	8.75
647.225	8.85
646.166	8.7
645.106	8.3
644.044	8.6
642.985	9.05
641.925	9.1
640.865	9.2
639.803	8.85
638.743	9.05
637.682	8.65
636.62	9.15
635.559	9.15
634.499	8.7
633.436	9.1
632.375	9.45
631.314	8.9
630.25	8.45
629.189	8.9
628.128	8.65
627.064	9.7
626.002	9.15
624.94	9
623.877	9.65
622.814	8.9
621.752	9.55
620.688	9.15
619.625	9.45
618.563	9.5
617.498	9.4
616.435	8.95
615.372	9.15
614.307	9.4
613.244	8.4
612.179	8.85
611.115	8.65
610.052	8.45
608.986	9
607.922	8.6
606.858	8.35
605.792	8.25
604.728	8.55
603.662	8.65
602.597	8.45
601.533	8.35
600.466	8.7
599.401	8.25
598.334	8.4
597.269	8.55
596.204	8.55
595.137	8.15
594.071	8.85
593.003	8.75
591.938	8.75
590.87	8.85
589.804	8.5
588.738	9.2
587.67	8.4
586.603	9.1
585.535	8.6
584.468	8.6
583.4	8.85
582.333	8.65
581.264	8.95
580.197	8.95
579.13	8.75
578.06	9
576.993	8.9
575.923	9.45
574.856	9.4
573.786	9.55
572.718	8.95
571.648	9.05
570.58	8.8
569.509	9.15
568.441	9.15
567.37	9.2
566.301	9.45
565.231	9.55
564.162	9.7
563.091	10
562.021	9.95
560.95	9.6
559.881	10.25
558.809	9.75
557.739	9.8
556.667	10.1
555.597	10.55
554.525	10.3
553.455	10.1
552.383	10.4
551.312	10.4
550.24	10.55
549.169	11.05
548.096	11
547.025	11.35
545.952	11.2
544.879	11.1
543.807	11.2
542.734	12.35
541.662	12.5
540.589	12.55
539.517	12.25
538.443	12.85
537.371	12.75
536.297	13.75
535.222	14.2
534.15	15.55
533.075	15.5
532.002	16
530.927	16.45
529.852	18.4
528.779	19
527.704	20.55
526.631	22.7
525.555	25.05
524.482	27.95
523.406	31.1
522.33	34.95
521.256	38.75
520.18	38.85
519.104	38.2
518.029	34.45
516.953	31.4
515.878	26.95
514.801	22.45
513.724	19.3
512.649	17.05
511.572	15.55
510.497	13.1
509.419	11.5
508.342	11.2
507.266	10.2
506.189	9.1
505.111	9.15
504.035	8.7
502.956	8.35
501.878	8.8
500.802	8.15
499.723	8.45
498.645	7.75
497.568	7.65
496.489	7.7
495.41	7.95
494.333	7.3
493.253	7.25
492.174	7.15
491.096	7.65
490.017	7.2
488.937	7.8
487.859	7.15
486.779	7.5
485.699	7.05
484.618	7.05
483.54	7.45
482.459	7.7
481.378	7.05
480.3	7.25
479.219	7.3
478.138	7.25
477.058	7.7
475.977	6.95
474.896	7.25
473.814	7.3
472.734	7.3
471.652	7.35
470.57	7.45
469.488	7.35
468.408	7.2
467.326	7.45
466.243	7.25
465.16	7.25
464.08	7.15
462.997	7.55
461.914	7.5
460.831	7.15
459.749	7.45
458.666	7.15
457.583	7.2
456.499	7.45
455.417	7.45
454.333	7.5
453.249	7.35
452.165	7.55
451.083	7.4
449.998	6.95
448.914	7.65
447.829	7.7
446.744	7.45
445.661	7.65
444.576	7.5
443.491	7.65
442.406	7.8
441.32	7.6
440.237	7.35
439.151	7.8
438.065	8.05
436.979	7.75
435.893	7.7
434.807	7.45
433.723	7.7
432.636	7.5
431.55	7.9
430.463	7.75
429.376	7.9
428.289	7.75
427.204	7.75
426.117	7.7
425.029	7.55
423.942	7.2
422.854	7.55
421.766	7.6
420.681	7.65
419.592	7.85
418.504	7.5
417.416	7.7
416.328	7.55
415.239	7.5
414.15	7.7
413.062	7.9
411.975	7.6
410.886	7.6
409.797	7.95
408.707	7.75
407.618	7.75
406.528	7.5
405.438	7.55
404.349	7.65
403.259	7.55
402.171	7.5
401.08	7.75
399.99	7.95
398.9	7.9
397.809	7.85
396.718	7.85
395.627	7.6
394.536	7.85
393.445	7.6
392.354	8
391.263	8.25
390.171	7.7
389.082	7.5
387.99	8.25
386.898	8.2
385.806	7.65
384.714	7.75
383.621	8
382.529	8.25
381.436	7.7
380.344	7.5
379.251	8.05
378.158	7.75
377.065	8.1
375.972	8.4
374.878	7.65
373.785	8.4
372.691	8.3
371.598	7.9
370.504	7.9
369.41	7.85
368.316	7.7
367.221	7.7
366.127	7.85
365.033	7.8
363.938	8.25
362.843	8
361.748	8.45
360.653	8.65
359.558	8.35
358.463	7.55
357.367	8.05
356.272	8
355.176	8.05
354.08	8.55
352.985	8.2
351.888	8.05
350.792	8.25
349.696	8.3
348.6	8.05
347.503	8.95
346.406	8.5
345.309	8.55
344.212	8.4
343.115	8.75
342.018	9.2
340.921	9.05
339.823	9.65
338.726	9.35
337.628	8.8
336.53	9.05
335.432	9.45
334.334	8.6
333.233	8.95
332.135	8.9
331.036	8.65
329.938	9
328.839	8.65
327.74	9
326.641	9
325.542	9.45
324.443	9.35
323.343	9.6
322.243	9.55
321.144	9.5
320.042	10.3
318.942	9.55
317.842	10.7
316.742	10.7
315.641	11.2
314.541	11.4
313.44	12.75
312.339	13.75
311.238	13.95
310.135	14.05
309.034	13.65
307.933	12.85
306.831	12.15
305.73	11.9
304.628	12
303.526	11.3
302.424	11.9
301.32	11.85
300.218	11.85
299.116	12.4
298.013	13.05
296.911	14.05
295.808	14.15
294.703	15.25
293.6	14.75
292.497	14
291.393	13.5
290.29	12.15
289.187	11.05
288.081	11.15
286.977	10.7
285.873	10.05
284.769	9.95
283.665	10.7
282.561	9.55
281.454	10
280.349	9.6
279.245	9.2
278.14	9.75
277.035	9.7
275.928	10.2
274.823	10.5
273.717	10.95
272.612	11.05
271.506	11.55
270.398	12.95
269.292	12.55
268.186	13.2
267.08	13.7
265.972	13.2
264.865	12.85
263.759	11.65
262.652	11.25
261.545	11.05
260.436	10.35
259.329	10.5
258.222	9.65
257.114	9.4
256.005	9.3
254.897	9.6
253.789	9.15
252.682	9.05
251.572	9.2
250.463	9.25
249.355	8.85
248.247	9.2
247.136	9
246.027	9
244.919	8.8
243.807	8.9
242.698	8.7
241.589	8.8
240.48	9.5
239.368	8.7
238.259	9.15
237.149	8.55
236.037	9
234.927	9.05
233.817	9.05
232.707	8.85
231.594	8.7
230.484	8.55
229.373	8.95
228.26	8.75
227.149	9.2
226.038	8.65
224.925	8.85
223.813	9.7
222.702	9.75
221.588	10
220.476	9.3
219.365	9.55
218.25	9.75
217.138	9.5
216.026	8.7
214.911	9.05
213.799	9.35
212.686	8.6
211.571	8.45
210.458	8.85
209.345	9.4
208.23	8.5
207.117	8.6
206.001	8.7
204.888	8.85
203.774	8.9
202.658	8.5
201.544	8.8
200.43	8.8
199.313	9.25
198.199	8.85
197.082	8.3
195.968	8.6
194.853	9
193.736	8.1
192.621	8.45
191.505	9.25
190.388	8.55
189.273	8.3
188.155	8.75
187.039	8.7
185.923	9.2
184.805	9.1
183.689	8.9
182.571	8.95
181.454	9.25
180.336	9.2
179.219	9.25
178.102	9.35
176.983	9.6
175.866	10.15
174.747	10
173.629	10.65
172.51	10.95
171.392	11.95
170.274	12.8
169.154	13.6
168.036	15.2
166.916	17.25
165.798	17.85
164.677	20.9
163.559	22.85
162.438	23.2
161.319	23.25
160.198	22.3
159.079	19.6
157.957	18.6
156.838	17.2
155.719	15.5
154.597	15.1
153.477	13.5
152.355	13.25
151.235	12.05
150.113	11.6
148.992	11.7
147.87	11.45
146.749	10.85
145.626	10.3
144.506	10.6
143.382	10.75
142.261	11.1
141.138	10.95
140.017	10.8
138.893	10.55
137.771	10.25
136.647	9.75
135.525	10.2
134.401	10.4
133.277	10.55
132.155	10
131.03	10.15
129.907	9.85
128.782	10.1
127.66	10.35
126.534	9.7
125.411	10.5
124.286	9.8
123.163	10.2
122.037	10.3
120.913	10
119.787	10.4
118.661	10.7
117.537	11.55
116.411	11.6
115.286	11.95
114.16	12.5
113.035	11.5
111.908	11.05
110.781	10.65
109.656	11.05
108.529	10.85
107.403	11.65
106.276	10.4
105.15	10.7
104.022	10.2
102.894	9.95
101.768	10.1
100.64	10.4
99.514	10
98.3854	10.15
97.2568	10.3
96.1301	10
95.0012	10.35
93.8721	10.5
92.745	10.45
91.6157	10.7
90.4883	10.05
89.3587	9.95
88.2289	9.95
87.1012	9.9
85.9712	10.35
84.841	10.25
83.7128	10.9
82.5824	10.5
81.4539	10.45
80.3232	10.2
79.1924	9.7
78.0635	10.55
76.9324	10
75.8012	10.1
74.6719	10.15
73.5404	10.2
72.4087	10.3
71.279	10.35
70.1471	9.95
69.015	10.35
67.8849	10.05
66.7526	10
65.6201	9.65
64.4896	10
63.3569	9.85
62.224	9.95
61.0931	10.15
59.9599	10.45
58.8266	9.95
57.6953	8.95
56.5617	8.8
55.428	8.85
54.2941	8.7
53.1623	7.9
52.0281	7.55
50.8939	8.2
49.7616	8.1
48.627	7.6
47.4924	7.45
46.3575	7.2
45.2247	7.5
44.0896	7.05
42.9544	7.6
41.8212	7.35
40.6857	7.2
39.55	7.1
38.4143	7.1
37.2805	7.7
36.1444	7.85
35.0082	7.75
33.8719	6.9];
