function [] = processRamanGatingData()

dataPoint8 = [
1660.49	70.85
1659.55	69.75
1658.61	71.2
1657.67	70.65
1656.73	70.05
1655.79	70.1
1654.85	69.9
1653.91	71.55
1652.97	70.6
1652.03	71.05
1651.09	70
1650.15	72.25
1649.21	70.45
1648.27	70.7
1647.33	69.85
1646.39	68.85
1645.45	69.8
1644.51	70.65
1643.57	71.15
1642.63	70.55
1641.69	70.6
1640.75	69.95
1639.8	71.7
1638.86	69.9
1637.92	70.35
1636.98	70.4
1636.04	70.15
1635.1	69.95
1634.15	70.5
1633.21	70.95
1632.27	70.85
1631.33	70.6
1630.38	70.4
1629.44	71.45
1628.5	70.45
1627.55	71.6
1626.61	70.75
1625.67	71.05
1624.73	70.8
1623.78	70.7
1622.84	71.35
1621.9	70.85
1620.95	71.2
1620.01	71.4
1619.07	69.7
1618.12	71.35
1617.18	71.05
1616.23	70.9
1615.29	72.15
1614.34	70.8
1613.4	71
1612.46	72.15
1611.51	72.65
1610.57	70.25
1609.62	71.5
1608.68	72.35
1607.73	72.55
1606.78	71.9
1605.84	70.85
1604.9	73.55
1603.95	71.95
1603	71.25
1602.06	71.8
1601.11	71.4
1600.17	72.2
1599.22	71.25
1598.27	73.05
1597.33	71.35
1596.38	71.35
1595.43	72.35
1594.49	71.9
1593.54	72.95
1592.59	71.6
1591.65	72.3
1590.7	71.85
1589.75	72
1588.81	71.65
1587.86	71.35
1586.91	73.5
1585.96	71.65
1585.01	71.7
1584.07	72.9
1583.12	71.45
1582.17	72.45
1581.22	72.15
1580.27	73
1579.33	72.55
1578.38	71.2
1577.43	73.45
1576.48	72.95
1575.53	71.85
1574.58	72.35
1573.63	73.1
1572.68	72.7
1571.73	72.3
1570.78	72.25
1569.83	72.45
1568.89	71.45
1567.94	72.3
1566.99	72.55
1566.04	72
1565.08	71.6
1564.14	73.25
1563.18	72.75
1562.23	72.55
1561.28	73.1
1560.33	72.2
1559.38	72.3
1558.43	72.15
1557.48	72.1
1556.53	72.8
1555.58	72.25
1554.63	73.35
1553.68	72.55
1552.72	73.1
1551.77	72.5
1550.82	72.3
1549.87	72.2
1548.92	72.3
1547.96	72.45
1547.01	71.45
1546.06	72.65
1545.11	72.3
1544.15	71.8
1543.2	71.3
1542.25	72.35
1541.3	71.15
1540.34	71.7
1539.39	72.4
1538.44	70.75
1537.48	71
1536.53	70.85
1535.58	70.85
1534.62	71.75
1533.67	71.7
1532.72	71.75
1531.76	71.15
1530.81	72.05
1529.85	71.45
1528.9	70.2
1527.94	71.4
1526.99	70.4
1526.03	69.95
1525.08	71.35
1524.13	72.1
1523.17	70.65
1522.22	69.95
1521.26	70.15
1520.3	70.15
1519.35	71.9
1518.39	71.35
1517.44	70.15
1516.48	71.4
1515.53	70.95
1514.57	71.3
1513.61	70.55
1512.66	70.6
1511.7	71.55
1510.75	70.5
1509.79	70.25
1508.83	69.9
1507.87	71.35
1506.92	70.6
1505.96	70.65
1505	71.95
1504.05	71.3
1503.09	72.15
1502.13	71.7
1501.17	72.7
1500.22	72.65
1499.26	72.6
1498.3	72.4
1497.34	73.15
1496.39	75
1495.43	74.1
1494.47	74.45
1493.51	75.35
1492.55	75.5
1491.59	75.7
1490.63	75.75
1489.68	77.05
1488.72	76.3
1487.76	77.9
1486.8	78.5
1485.84	79.85
1484.88	79.15
1483.92	79.95
1482.96	80.9
1482	81.3
1481.04	81.55
1480.08	83.3
1479.12	82.95
1478.16	83.5
1477.2	84.5
1476.24	84.05
1475.28	84.45
1474.32	86.4
1473.36	85.85
1472.39	88.75
1471.43	89.45
1470.47	90
1469.51	91.2
1468.55	92.2
1467.59	92.3
1466.63	93.95
1465.67	93.65
1464.7	94
1463.74	95.8
1462.78	97.4
1461.82	95.5
1460.85	98.2
1459.89	99.6
1458.93	101.2
1457.97	100.1
1457	101.45
1456.04	101.45
1455.08	100.35
1454.11	100.3
1453.15	100.25
1452.19	99.55
1451.23	98.25
1450.26	97.7
1449.3	97.3
1448.33	95.45
1447.37	92.35
1446.41	92.9
1445.44	89.15
1444.48	88.1
1443.51	85.7
1442.55	85.65
1441.59	82.45
1440.62	82.8
1439.66	80.25
1438.69	78.9
1437.72	78.45
1436.76	78.85
1435.79	77.45
1434.83	77.25
1433.86	75.1
1432.9	75.55
1431.93	75.4
1430.97	74.4
1430	75.25
1429.03	74.4
1428.07	74.15
1427.1	75.05
1426.14	73.6
1425.17	74.75
1424.2	73.3
1423.24	73.15
1422.27	73.4
1421.3	72.35
1420.34	72.9
1419.37	72.5
1418.4	72.55
1417.43	73.15
1416.47	72.7
1415.5	72.4
1414.53	72.95
1413.56	73.7
1412.6	73.2
1411.63	72.5
1410.66	72.5
1409.69	73.65
1408.72	73.15
1407.75	73
1406.78	73.8
1405.82	73.7
1404.85	73.75
1403.88	73.85
1402.91	74.45
1401.94	74.8
1400.97	72.55
1400	73.8
1399.03	73.1
1398.06	73.3
1397.09	73.85
1396.12	72.6
1395.15	73
1394.18	72.25
1393.21	71.85
1392.24	71.85
1391.27	71.95
1390.3	70.8
1389.33	71.6
1388.36	72.1
1387.39	71.9
1386.42	71.5
1385.45	71.95
1384.47	72.45
1383.5	71.5
1382.53	72.45
1381.56	71.9
1380.59	70.75
1379.61	72.25
1378.64	71.65
1377.67	71.3
1376.7	71.7
1375.73	72.9
1374.75	71.35
1373.78	71.9
1372.81	72.35
1371.84	73.2
1370.86	72.1
1369.89	72.25
1368.92	72.5
1367.95	73.05
1366.97	72.75
1366	72.8
1365.02	73.25
1364.05	74.6
1363.08	75.25
1362.1	75.5
1361.13	75.85
1360.15	76.15
1359.18	77.5
1358.2	77.3
1357.23	78.1
1356.26	77.4
1355.28	79.55
1354.31	79.15
1353.33	78.9
1352.36	78
1351.38	79.3
1350.41	79.3
1349.43	79.05
1348.46	79.15
1347.48	78
1346.5	78.55
1345.53	77.95
1344.55	77.7
1343.58	76.15
1342.6	77.1
1341.62	77.7
1340.65	77.75
1339.67	79.2
1338.69	80.15
1337.72	80.05
1336.74	81.25
1335.76	80.45
1334.79	81.7
1333.81	82.7
1332.83	83.45
1331.85	83.1
1330.88	83.35
1329.9	82.45
1328.92	81.9
1327.94	80.6
1326.97	79.85
1325.99	79.7
1325.01	79.35
1324.03	79
1323.05	78.5
1322.07	77.95
1321.09	76.8
1320.11	76.45
1319.14	76.65
1318.16	77
1317.18	74.7
1316.2	75.7
1315.22	74.7
1314.24	74.1
1313.26	73.3
1312.28	74.1
1311.3	73.65
1310.32	73.2
1309.34	74.6
1308.36	73.05
1307.38	73.75
1306.4	72.15
1305.42	73.95
1304.44	73.15
1303.46	72.6
1302.48	72.75
1301.49	72.05
1300.51	72.75
1299.53	71.65
1298.55	70.9
1297.57	71.15
1296.59	70.8
1295.6	70.05
1294.62	70.6
1293.64	69.6
1292.66	70.8
1291.68	69.65
1290.69	69.95
1289.71	66.9
1288.73	69.35
1287.75	67.75
1286.76	67.7
1285.78	67.3
1284.8	68.05
1283.81	67.6
1282.83	68.1
1281.85	67.9
1280.86	68.65
1279.88	67.8
1278.9	67.85
1277.91	67.65
1276.93	67.7
1275.94	66.7
1274.96	67.25
1273.98	67.45
1272.99	67.3
1272.01	67.3
1271.02	68.2
1270.04	69
1269.05	68.55
1268.07	69.3
1267.08	69.35
1266.1	69.35
1265.11	69.9
1264.13	70.25
1263.14	71.65
1262.15	70.25
1261.17	71.7
1260.18	71.35
1259.2	72.55
1258.21	72.05
1257.22	72.45
1256.24	71.15
1255.25	71.6
1254.26	71.15
1253.28	73.5
1252.29	74
1251.3	75.25
1250.32	77.9
1249.33	81.85
1248.34	88.35
1247.35	94.6
1246.37	102.55
1245.38	113.6
1244.39	122.6
1243.4	126.75
1242.41	128.4
1241.43	123.95
1240.44	119.7
1239.45	111.5
1238.46	104.6
1237.47	96.7
1236.48	91
1235.5	86.5
1234.51	84.2
1233.52	79.6
1232.53	77.9
1231.54	76.2
1230.55	75.6
1229.56	75.1
1228.57	74.1
1227.58	74.65
1226.59	72.2
1225.6	73.45
1224.61	73.3
1223.62	72.9
1222.63	72.95
1221.64	73.35
1220.65	73.15
1219.66	73.15
1218.67	73
1217.68	72.5
1216.68	72.9
1215.69	71.8
1214.7	72.9
1213.71	72.35
1212.72	74.25
1211.73	72.4
1210.74	72.6
1209.74	72.6
1208.75	72.15
1207.76	72.85
1206.77	72.75
1205.77	73.05
1204.78	73.15
1203.79	73.85
1202.8	72.8
1201.8	71.95
1200.81	71.95
1199.82	72.8
1198.82	72.6
1197.83	73
1196.84	72.7
1195.84	72.3
1194.85	72.55
1193.86	72.4
1192.86	72.1
1191.87	72.25
1190.87	71.9
1189.88	71.4
1188.88	73.3
1187.89	70.85
1186.9	71.6
1185.9	72.4
1184.91	70.9
1183.91	71.1
1182.91	70.35
1181.92	70.45
1180.93	72
1179.93	73
1178.93	71.6
1177.94	71.65
1176.94	71.3
1175.95	72.3
1174.95	71.7
1173.95	69.95
1172.96	71.05
1171.96	70.05
1170.97	70.1
1169.97	68.95
1168.97	70.2
1167.97	68.9
1166.98	68.8
1165.98	70.05
1164.98	69.25
1163.98	69
1162.99	69.85
1161.99	70
1160.99	69.4
1159.99	70.8
1159	70.8
1158	70.05
1157	69.3
1156	70.55
1155	71.05
1154.01	71.45
1153.01	70.8
1152.01	71.9
1151.01	73.4
1150.01	75.95
1149.01	77.75
1148.01	80
1147.01	81.35
1146.01	82.25
1145.01	85.55
1144.01	87.3
1143.01	88.95
1142.01	90.9
1141.01	93.35
1140.01	94.85
1139.01	95.9
1138.01	96.65
1137.01	96.85
1136.01	96.6
1135.01	94.75
1134.01	93.85
1133.01	92.2
1132	87.9
1131	86.5
1130	83.25
1129	81.55
1128	78.9
1127	79.1
1125.99	77.1
1124.99	75.7
1123.99	74.95
1122.99	74
1121.99	73.1
1120.98	72.5
1119.98	73.3
1118.98	72.25
1117.98	71.15
1116.97	71.7
1115.97	72.65
1114.97	72.1
1113.96	71.85
1112.96	71
1111.96	72.6
1110.95	70.05
1109.95	69.75
1108.94	69.8
1107.94	71.25
1106.94	72
1105.93	70.95
1104.93	70.4
1103.92	69.6
1102.92	69.3
1101.91	69.05
1100.91	68.05
1099.9	67.75
1098.9	68.05
1097.89	67.35
1096.89	66.95
1095.88	66.15
1094.88	66.3
1093.87	66.55
1092.86	66
1091.86	65.6
1090.85	66.45
1089.85	65.95
1088.84	67
1087.83	66.8
1086.83	66.25
1085.82	67.7
1084.81	68.1
1083.81	68.05
1082.8	68.15
1081.79	68.8
1080.78	68.35
1079.78	68.5
1078.77	68
1077.76	68.1
1076.75	69.15
1075.75	69.15
1074.74	68.7
1073.73	68.25
1072.72	69.4
1071.71	70.4
1070.7	70.25
1069.7	69.35
1068.69	69.65
1067.68	69.15
1066.67	70
1065.66	68.6
1064.65	68.2
1063.64	68.4
1062.63	67.6
1061.62	67.2
1060.61	66.15
1059.6	67.05
1058.59	66.25
1057.58	67.05
1056.57	66.25
1055.56	65.8
1054.55	66.15
1053.54	66.2
1052.53	67.4
1051.52	66.9
1050.51	65.9
1049.5	66
1048.49	66.95
1047.47	67.15
1046.46	67.75
1045.45	68.45
1044.44	66.1
1043.43	67.2
1042.42	67.9
1041.4	67.95
1040.39	68.45
1039.38	67.9
1038.37	68.45
1037.35	69.35
1036.34	68.85
1035.33	69.55
1034.32	69.6
1033.3	71.35
1032.29	71.15
1031.28	73.15
1030.26	72.25
1029.25	74.25
1028.24	73.9
1027.22	74.45
1026.21	75.2
1025.19	73.95
1024.18	74.8
1023.17	74.9
1022.15	75.05
1021.14	75.05
1020.12	75.6
1019.11	76.05
1018.09	76.25
1017.08	77.05
1016.06	76.95
1015.05	78.3
1014.03	77
1013.02	77.3
1012	78.15
1010.99	78.8
1009.97	79.9
1008.95	81.1
1007.94	81.15
1006.92	81.75
1005.91	81.4
1004.89	82.9
1003.87	83
1002.86	84.1
1001.84	83.5
1000.82	84.45
999.806	84.1
998.788	85.95
997.771	86.4
996.754	85.8
995.737	87.25
994.718	89.1
993.701	90.95
992.683	91.4
991.664	91.65
990.646	96.15
989.629	98.05
988.611	98.9
987.591	102
986.573	102.45
985.555	103.95
984.535	104
983.516	105.45
982.498	105.15
981.477	107.25
980.458	105.95
979.439	107
978.419	107.25
977.399	106.35
976.38	107.1
975.359	104.55
974.34	106.85
973.32	105.7
972.298	106.4
971.279	107.05
970.259	105.4
969.237	106.95
968.216	107.3
967.196	105.6
966.174	107.6
965.153	107.35
964.133	107.5
963.11	107.75
962.089	108.75
961.068	108.2
960.045	109.8
959.024	110
958.001	109.9
956.979	108.65
955.958	110.7
954.934	111.15
953.912	113
952.889	110.6
951.867	110.7
950.844	110
949.82	108.25
948.798	108.95
947.773	109.15
946.751	108.45
945.728	108.45
944.703	109.3
943.68	109
942.655	107.1
941.632	105.5
940.607	105.5
939.583	104.35
938.56	100.05
937.534	97.35
936.51	94.7
935.485	91.6
934.461	88.35
933.435	87.3
932.41	84.5
931.384	81.85
930.36	80.05
929.335	78.3
928.308	76.9
927.283	75.65
926.257	74.45
925.231	73.5
924.204	73
923.179	72.55
922.152	72.45
921.126	69.9
920.098	73.7
919.073	70
918.045	72
917.019	70.5
915.991	70.7
914.964	70.7
913.936	70.6
912.91	70.8
911.881	70.85
910.854	69.65
909.826	70.3
908.799	70.7
907.77	70.2
906.742	70.2
905.713	69.3
904.684	69.4
903.656	70
902.627	70.1
901.599	69.7
900.569	68.95
899.541	69.45
898.511	69.85
897.483	70.7
896.452	69.7
895.422	69.35
894.393	69.9
893.362	71.05
892.334	71.65
891.303	71.85
890.274	73.65
889.242	75.65
888.211	76.8
887.182	78
886.15	78.6
885.12	80.75
884.089	81.1
883.057	81.15
882.027	80.55
880.995	81.3
879.964	81.1
878.932	79.6
877.9	80.75
876.869	79.7
875.836	78.7
874.805	80.4
873.772	79
872.739	79.65
871.708	77.85
870.675	77.55
869.641	77.8
868.61	77
867.576	76.25
866.544	74.3
865.51	73.4
864.476	72.75
863.444	72.75
862.41	71.7
861.376	72.5
860.343	71.3
859.308	71.3
858.274	70.55
857.241	70.5
856.206	70.4
855.171	70.25
854.138	70.15
853.102	70.65
852.067	71.2
851.031	69.85
849.997	71
848.962	71.05
847.926	70.4
846.892	71.5
845.856	70.6
844.819	69.55
843.785	70.7
842.748	71.6
841.712	71.45
840.675	73
839.64	73.8
838.603	73.5
837.566	73.45
836.529	72.95
835.493	73.65
834.456	74.2
833.418	72.5
832.382	73.95
831.344	72.25
830.307	73.35
829.268	73.2
828.232	73.5
827.194	73.4
826.155	73.95
825.117	73.95
824.078	73.9
823.041	74.2
822.002	74.05
820.963	73.6
819.924	73.85
818.887	72.8
817.847	74.95
816.808	74.1
815.768	73.95
814.729	72.1
813.691	74.2
812.651	73
811.611	74.05
810.57	73.45
809.53	72.75
808.491	73.4
807.451	73
806.41	71.85
805.369	72.55
804.328	73.45
803.289	72.6
802.248	74.2
801.207	73.2
800.165	73.7
799.124	73.45
798.082	74.85
797.042	73.1
796	73.25
794.958	74.15
793.916	73.65
792.874	73.5
791.831	72.25
790.789	74.05
789.748	73.4
788.705	72.25
787.662	71.65
786.619	69.75
785.576	70.65
784.533	70.8
783.49	68.85
782.446	69.35
781.404	68.6
780.361	68.35
779.317	68.15
778.273	67.4
777.229	67.4
776.184	68.45
775.14	67.5
774.096	69.45
773.051	67.5
772.006	67.25
770.964	68.1
769.919	69.15
768.873	70.3
767.828	68.85
766.783	68.8
765.737	71.6
764.692	72.25
763.646	72.15
762.6	71.8
761.555	71.4
760.508	71.4
759.462	71.2
758.416	71.2
757.37	72.05
756.323	72.05
755.278	72.9
754.232	73.65
753.185	75.1
752.138	79.35
751.091	81
750.043	85.05
748.996	90.1
747.948	99.35
746.901	113.05
745.853	130.25
744.805	156.25
743.757	184.1
742.709	209.25
741.661	219.4
740.613	210.2
739.564	187.05
738.516	160.65
737.467	133.5
736.418	111.95
735.369	97.7
734.32	86.4
733.271	80.8
732.221	78.15
731.172	74.85
730.122	72.75
729.073	71.75
728.023	70.25
726.973	69.7
725.923	69.1
724.873	68.4
723.82	68.4
722.77	68.15
721.719	69.05
720.669	68.3
719.618	68.1
718.567	68.2
717.516	68.95
716.465	67.75
715.414	68.25
714.362	68.6
713.311	69.4
712.259	70
711.207	68.75
710.155	68.1
709.103	69.9
708.049	68.95
706.997	67.7
705.944	68.15
704.892	68.8
703.839	68.35
702.787	67.95
701.734	69.65
700.681	68.7
699.628	69.6
698.574	68.15
697.519	70.75
696.466	69.75
695.412	70.85
694.358	69.95
693.304	72.8
692.25	74
691.196	75.85
690.142	78.15
689.086	81.8
688.031	83.9
686.977	88.1
685.922	93.75
684.867	98.1
683.812	102.55
682.757	105.8
681.7	107.1
680.644	107.3
679.589	105.3
678.533	101.95
677.478	97
676.422	92.95
675.364	89.05
674.308	85.4
673.252	83.25
672.195	80.55
671.139	80.2
670.082	78
669.024	77.9
667.967	77.7
666.91	76.95
665.853	75.65
664.796	76.4
663.736	74.65
662.679	75.8
661.621	75.55
660.564	74.9
659.504	75.6
658.446	76.05
657.388	76.5
656.33	76.2
655.272	75.75
654.211	76.6
653.153	76.5
652.094	76.4
651.035	76.75
649.974	77.35
648.915	76.5
647.856	77.35
646.797	77.75
645.735	77.45
644.676	77.25
643.616	78.85
642.556	78.05
641.495	78.9
640.435	79.35
639.374	78.95
638.314	78.9
637.252	78.45
636.191	79.35
635.131	78.7
634.068	80.05
633.007	79.5
631.946	80.8
630.885	80.3
629.821	81.5
628.76	82.1
627.699	82.6
626.635	83.1
625.573	83.4
624.511	83.75
623.447	84.7
622.385	85.4
621.323	86.8
620.26	87.85
619.196	89.15
618.133	90.85
617.071	90.05
616.006	88.85
614.943	86.7
613.88	85.2
612.814	83.35
611.751	80.65
610.687	81.5
609.622	79.9
608.558	80.15
607.492	79.85
606.428	79.2
605.364	78.35
604.298	79
603.233	79.15
602.169	80.7
601.102	80.55
600.038	81
598.973	81.35
597.906	82.4
596.841	83.7
595.773	82.9
594.708	85.55
593.642	86.1
592.575	87.95
591.509	88.5
590.441	88.55
589.375	88.9
588.309	88.95
587.241	88.6
586.174	88.15
585.106	88.55
584.039	88.45
582.973	88.35
581.904	88.85
580.837	89.2
579.768	89.05
578.7	91.5
577.631	93.8
576.563	92.85
575.496	97.65
574.426	100.75
573.358	104
572.288	106.55
571.22	105.9
570.15	105.35
569.081	105.7
568.011	104.65
566.942	104.25
565.874	103.7
564.803	105.35
563.734	105.6
562.662	107.5
561.593	109.55
560.522	111.4
559.452	113.45
558.381	113.4
557.311	116.3
556.239	119.05
555.169	120
554.097	121.65
553.027	123.35
551.954	125.65
550.884	127.65
549.811	129.1
548.74	130.9
547.667	129.2
546.596	133.85
545.523	133.75
544.452	136.5
543.379	138.8
542.307	142.6
541.233	146.5
540.162	152.9
539.088	157.8
538.016	163.2
536.941	171.65
535.869	180.1
534.795	191
533.72	201.65
532.648	216.25
531.573	228.25
530.5	249.6
529.425	274.1
528.352	299.4
527.276	332.3
526.203	374.7
525.127	423.8
524.052	485.7
522.978	548.4
521.902	597.25
520.828	633.55
519.752	625.65
518.677	589.95
517.601	524.25
516.524	453.85
515.45	379.9
514.373	312.35
513.298	260.15
512.221	217.8
511.144	184.1
510.068	157.55
508.991	136.05
507.915	120.7
506.838	107
505.76	98.75
504.684	89.5
503.606	83.3
502.528	78.95
501.451	73.4
500.373	70.1
499.296	68.6
498.217	65.9
497.139	63.65
496.062	63.55
494.983	62.75
493.903	59.9
492.826	59.75
491.746	59.2
490.667	57.95
489.589	57.55
488.509	56.8
487.429	56.55
486.351	54.95
485.271	56.25
484.191	54.7
483.112	54.2
482.031	54.7
480.951	53.35
479.872	54.15
478.791	54.5
477.71	55.45
476.63	53.25
475.549	52.9
474.467	53.6
473.388	53.7
472.306	53.8
471.224	53
470.144	53.95
469.062	53.55
467.98	52.6
466.897	52.45
465.817	53.2
464.734	54.05
463.651	52.45
462.57	52.3
461.487	52.65
460.404	53.45
459.321	52.45
458.239	53.15
457.156	53.3
456.072	54.2
454.988	53.75
453.906	53.9
452.822	53.85
451.738	55.15
450.654	55.6
449.571	55.45
448.487	55.65
447.402	56.25
446.317	55.9
445.234	56.75
444.149	58.05
443.064	57.65
441.978	58.1
440.893	58.35
439.809	59
438.723	58.75
437.637	59.45
436.551	60.4
435.467	60.5
434.381	61.35
433.295	61
432.208	60.85
431.121	62.05
430.037	63.65
428.95	62
427.863	62.1
426.776	63.15
425.688	63.9
424.603	63.65
423.515	64.75
422.428	66.75
421.34	67.25
420.252	67
419.164	68.85
418.078	70.45
416.989	71.05
415.901	71.25
414.812	72.45
413.724	74.75
412.635	76.55
411.546	78.1
410.459	79.7
409.369	81
408.28	82.45
407.191	81.7
406.101	83.55
405.011	83.4
403.921	82.3
402.833	84.1
401.743	83.6
400.653	83.25
399.563	83.9
398.472	84.4
397.381	83.5
396.291	81.8
395.2	79.95
394.111	79.95
393.02	77.2
391.928	74.95
390.837	72.95
389.745	71.3
388.654	70.9
387.562	70.15
386.47	69.75
385.378	69.8
384.285	70.05
383.193	69.3
382.103	68.5
381.01	68.9
379.917	67.8
378.825	69.05
377.732	68.25
376.638	67.9
375.545	68.45
374.452	70.25
373.358	68.05
372.265	69.9
371.171	69.3
370.077	70.15
368.983	69.8
367.889	69.95
366.795	69.6
365.7	71
364.606	71.95
363.513	71.7
362.418	72.95
361.323	73.45
360.228	74.1
359.133	74.35
358.038	75.1
356.942	75.85
355.847	75.2
354.751	77.6
353.655	79.2
352.559	79.95
351.463	80.65
350.367	82.6
349.27	84
348.174	84.15
347.077	85.6
345.98	87
344.884	90.35
343.786	92.85
342.689	96.5
341.592	99.4
340.495	102
339.397	103.2
338.299	101.25
337.202	101.2
336.102	100.6
335.004	99.9
333.905	103
332.807	105.2
331.709	108.5
330.61	109.5
329.511	113.5
328.412	115.1
327.313	116.55
326.214	119.5
325.115	117.6
324.016	115.9
322.916	114.65
321.817	114
320.717	113.55
319.617	114
318.517	118.55
317.417	122.05
316.314	127.55
315.214	131.85
314.113	135.45
313.013	139.45
311.912	139.95
310.811	140.55
309.71	137.7
308.609	134.45
307.507	133.55
306.406	131.9
305.304	131.35
304.2	131.4
303.098	133.35
301.996	132.85
300.894	134.95
299.792	137.75
298.69	140.85
297.587	142.85
296.485	141.6
295.38	141.95
294.277	140.55
293.174	140.35
292.071	141.45
290.967	143.05
289.864	144.2
288.76	147.4
287.656	148.9
286.551	147.45
285.447	148.15
284.342	147.9
283.238	149.95
282.134	152.1
281.029	157.7
279.923	160.55
278.818	162.35
277.713	159.1
276.608	152.15
275.503	144.8
274.398	135.2
273.29	127.5
272.184	120.3
271.079	115.25
269.973	109.8
268.867	107.65
267.759	105.5
266.653	104.3
265.546	102
264.44	100.8
263.333	98.3
262.224	98.65
261.117	94.95
260.01	94.45
258.903	91
257.796	90.7
256.687	89
255.579	88.05
254.471	86.9
253.364	85.7
252.254	84.75
251.145	83.6
250.037	82.3
248.929	82.65
247.82	82.3
246.71	81.35
245.601	81.65
244.492	80.35
243.383	79.8
242.272	79.4
241.163	80.4
240.053	79.75
238.942	78.05
237.832	79.7
236.722	79.8
235.612	79.25
234.5	78.1
233.39	78.05
232.28	78.15
231.169	77.05
230.057	77.85
228.946	77.15
227.835	78.45
226.722	77.1
225.611	76.7
224.499	76.9
223.388	75.4
222.274	75
221.163	74.65
220.051	74.1
218.937	74.65
217.825	74.1
216.713	75.15
215.598	73.45
214.486	74.65
213.373	74.45
212.258	74.95
211.146	74.5
210.033	73.4
208.917	75.3
207.804	74.55
206.691	73.5
205.575	74.15
204.462	73.8
203.348	74.6
202.232	74.3
201.118	72.7
200.003	72.95
198.887	74.25
197.773	73.9
196.658	74.5
195.541	74.65
194.426	74.4
193.311	73.7
192.194	74.9
191.079	76.45
189.963	76.1
188.846	76.05
187.73	76.25
186.612	77.4
185.496	78
184.38	78.4
183.262	78.5
182.146	79.4
181.027	80.2
179.91	79.6
178.794	82.35
177.675	82.75
176.558	83.35
175.438	84.45
174.321	86.5
173.204	87.3
172.084	87.7
170.966	90.7
169.847	90
168.729	92.1
167.611	93.65
166.49	93.4
165.372	93.3
164.251	94.65
163.133	94.8
162.012	95.4
160.893	96.3
159.772	94.05
158.653	95.05
157.533	95.25
156.412	95.2
155.292	96.1
154.171	96.25
153.051	95.7
151.929	95.7
150.809	95.65
149.686	96.05
148.566	95.1
147.443	96.3
146.323	96.35
145.202	94.8
144.079	94.9
142.958	94.85
141.834	95.2
140.713	95.8
139.59	96.8
138.468	95.95
137.344	94.45
136.222	95.5
135.098	95.25
133.976	94.9
132.852	96.15
131.729	97.85
130.605	99.6
129.482	100.35
128.357	102.3
127.234	103.35
126.109	106.6
124.986	108.6
123.86	110.5
122.737	113.65
121.611	115.35
120.485	115.5
119.361	113.15
118.235	111.05
117.111	107.85
115.985	106.55
114.86	104.75
113.734	101.75
112.609	102.15
111.482	100.75
110.357	101.6
109.23	101.5
108.103	101.75
106.977	101.55
105.85	101.3
104.724	100.45
103.596	99.7
102.47	100
101.342	100.55
100.216	101.15
99.0873	99.85
97.9587	100
96.8322	101.3
95.7033	101.85
94.5764	103.25
93.4473	103.6
92.3181	104.5
91.1908	104.5
90.0613	105.05
88.9337	106.3
87.8039	106.55
86.674	108.85
85.546	109.8
84.4158	109.9
83.2876	111.75
82.1571	110.9
81.0265	111.1
79.8979	111.3
78.767	110.85
77.6381	111.25
76.5069	113
75.3756	112.8
74.2463	114.55
73.1147	113.5
71.983	113.35
70.8532	114.8
69.7213	113.85
68.5891	115.25
67.459	114.6
66.3266	118.75
65.1962	117.4
64.0635	117.45
62.9307	116.75
61.7999	113.4
60.6668	111.8
59.5336	108.9
58.4024	105.15
57.2689	99.5
56.1352	95.1
55.0036	91.9
53.8697	88.3
52.7356	84.7
51.6036	83.65
50.4693	80.65
49.3348	76.85
48.2002	75.75
47.0676	72.3
45.9328	72.65
44.7977	71.75
43.6647	72.6
42.5295	71.9
41.394	72.35
40.2606	74
39.1249	74.8
37.9891	75.25
36.8531	74.85
35.7192	75.75
34.5829	74.45
33.4465	71.75
32.3122	67.1
31.1755	62
30.0387	57.9
28.9018	51.75
27.7669	46.85
26.6297	43.15
25.4923	38.3
24.3548	33.5
23.2194	29.75
22.0816	25.45
20.9437	20.4
19.8057	16.2
18.6696	12.5
17.5313	10.45
16.3929	9.05
15.2543	8.1
14.1177	8.35
12.9788	9.15
11.8398	8.95
10.7007	9.7
9.56358	10.95
8.42416	13.45
7.28461	17.7];

dataBackground = [
1660.49	58.3
1659.55	58.35
1658.61	59
1657.67	58.5
1656.73	58.6
1655.79	57.95
1654.85	57.9
1653.91	58.9
1652.97	57.95
1652.03	58.25
1651.09	57.7
1650.15	58.05
1649.21	58.65
1648.27	57.95
1647.33	58.55
1646.39	58.35
1645.45	57.95
1644.51	58.65
1643.57	58.1
1642.63	58.55
1641.69	58.5
1640.75	57.55
1639.8	58.05
1638.86	58.25
1637.92	58.1
1636.98	58.8
1636.04	57.75
1635.1	58.45
1634.15	58.45
1633.21	56.7
1632.27	59.15
1631.33	57.9
1630.38	57.55
1629.44	58.4
1628.5	58.25
1627.55	59.05
1626.61	58.85
1625.67	58.15
1624.73	57.85
1623.78	59.25
1622.84	58.45
1621.9	58
1620.95	58.65
1620.01	58.4
1619.07	59.35
1618.12	59.25
1617.18	58.35
1616.23	58.6
1615.29	58.75
1614.34	58.35
1613.4	58.9
1612.46	58.05
1611.51	58.1
1610.57	58.8
1609.62	59.5
1608.68	58.8
1607.73	59.25
1606.78	58.3
1605.84	58.7
1604.9	59.45
1603.95	58.9
1603	59
1602.06	58.95
1601.11	59.05
1600.17	59.15
1599.22	58.6
1598.27	59.05
1597.33	60
1596.38	59.45
1595.43	59.2
1594.49	59.1
1593.54	59.5
1592.59	59.5
1591.65	58.7
1590.7	59.6
1589.75	59.65
1588.81	58.75
1587.86	59.6
1586.91	58.25
1585.96	59.25
1585.01	58.5
1584.07	59.75
1583.12	60.05
1582.17	58.7
1581.22	58.75
1580.27	59.35
1579.33	59.9
1578.38	60.2
1577.43	59.75
1576.48	59.8
1575.53	59.65
1574.58	59.5
1573.63	59
1572.68	59.6
1571.73	59.65
1570.78	58.85
1569.83	59.6
1568.89	59.95
1567.94	59.35
1566.99	59.05
1566.04	59.45
1565.08	59.35
1564.14	59.85
1563.18	58.75
1562.23	59.6
1561.28	59.2
1560.33	59.7
1559.38	59.45
1558.43	59.5
1557.48	59.35
1556.53	59.6
1555.58	59
1554.63	59.35
1553.68	60.3
1552.72	59.95
1551.77	59.8
1550.82	59.6
1549.87	58.25
1548.92	58.25
1547.96	59.05
1547.01	58.8
1546.06	58.75
1545.11	59.15
1544.15	60.4
1543.2	58.65
1542.25	59.35
1541.3	59.2
1540.34	59.3
1539.39	59.1
1538.44	58.55
1537.48	59.55
1536.53	59.2
1535.58	58.95
1534.62	58.6
1533.67	59.1
1532.72	58.15
1531.76	57.55
1530.81	58.6
1529.85	58.2
1528.9	59.4
1527.94	57.85
1526.99	59.15
1526.03	58.1
1525.08	58.3
1524.13	57.85
1523.17	58.95
1522.22	57.65
1521.26	58.05
1520.3	58.65
1519.35	58.7
1518.39	58.05
1517.44	57.8
1516.48	58.55
1515.53	59.2
1514.57	58.2
1513.61	58.4
1512.66	57.85
1511.7	58.45
1510.75	58.25
1509.79	59.4
1508.83	58.1
1507.87	58.6
1506.92	58.25
1505.96	58.45
1505	58.1
1504.05	59.15
1503.09	58.85
1502.13	59.05
1501.17	58.45
1500.22	59.6
1499.26	59.85
1498.3	59.8
1497.34	60.45
1496.39	61.55
1495.43	60.95
1494.47	61.2
1493.51	61.2
1492.55	62.7
1491.59	62.05
1490.63	63.25
1489.68	63.45
1488.72	62.65
1487.76	62.85
1486.8	64.85
1485.84	63.9
1484.88	65.6
1483.92	65.95
1482.96	65.75
1482	66.2
1481.04	67.35
1480.08	66.85
1479.12	66.8
1478.16	68.25
1477.2	68.15
1476.24	69.05
1475.28	68.9
1474.32	70.6
1473.36	70.25
1472.39	70.65
1471.43	72.65
1470.47	72.9
1469.51	74.15
1468.55	75.75
1467.59	75.7
1466.63	75.9
1465.67	75.75
1464.7	76.7
1463.74	77.3
1462.78	79.2
1461.82	79.05
1460.85	79.3
1459.89	80.65
1458.93	81.85
1457.97	81.7
1457	82.8
1456.04	81.9
1455.08	82.3
1454.11	81.8
1453.15	82
1452.19	80.4
1451.23	80.3
1450.26	79.15
1449.3	78.7
1448.33	77.5
1447.37	76.5
1446.41	73.65
1445.44	73.75
1444.48	72.85
1443.51	71.2
1442.55	70
1441.59	68.8
1440.62	67.6083
1439.66	65.1167
1438.69	64.975
1437.72	63.7333
1436.76	64.0417
1435.79	63.2
1434.83	62.25
1433.86	62.75
1432.9	62.45
1431.93	61.95
1430.97	61.75
1430	61.85
1429.03	61.25
1428.07	60.3
1427.1	60.75
1426.14	61
1425.17	60.5
1424.2	60.05
1423.24	60.05
1422.27	60.95
1421.3	60.05
1420.34	60.1
1419.37	59.6
1418.4	59
1417.43	58.75
1416.47	58.2
1415.5	59.5
1414.53	59.5
1413.56	59.65
1412.6	59.95
1411.63	60.05
1410.66	60.15
1409.69	60.7
1408.72	59.75
1407.75	60.7
1406.78	60.7
1405.82	61.7
1404.85	60.7
1403.88	60.55
1402.91	61.25
1401.94	59.5
1400.97	60.95
1400	60.7
1399.03	61.8
1398.06	60.45
1397.09	59.8
1396.12	60.9
1395.15	59.6
1394.18	59.8
1393.21	58.5
1392.24	58.45
1391.27	59.25
1390.3	59.2
1389.33	59.85
1388.36	58.95
1387.39	58.15
1386.42	59.15
1385.45	59.35
1384.47	58.85
1383.5	59.55
1382.53	60.15
1381.56	58.95
1380.59	59.8
1379.61	59.3
1378.64	59.25
1377.67	59.1
1376.7	58.45
1375.73	58.95
1374.75	58.75
1373.78	58.35
1372.81	58.8
1371.84	58.45
1370.86	59.1
1369.89	59.15
1368.92	60.55
1367.95	59
1366.97	59.55
1366	59.6
1365.02	60.7
1364.05	61
1363.08	61
1362.1	61.55
1361.13	61.2
1360.15	63.3
1359.18	62.1
1358.2	62.45
1357.23	64.15
1356.26	64.35
1355.28	64.5
1354.31	64.3
1353.33	64
1352.36	64.25
1351.38	65.55
1350.41	63.9
1349.43	65.45
1348.46	64.35
1347.48	65.1
1346.5	64.35
1345.53	64.25
1344.55	64.15
1343.58	62.65
1342.6	63.1
1341.62	62.3
1340.65	65.2
1339.67	64.7
1338.69	64.6
1337.72	66
1336.74	65.65
1335.76	65.55
1334.79	65.8
1333.81	67.7
1332.83	67.7
1331.85	67.55
1330.88	68.2
1329.9	67.7
1328.92	67.05
1327.94	67.05
1326.97	65.8
1325.99	65.8
1325.01	63.95
1324.03	64.2
1323.05	63
1322.07	63.7
1321.09	63.15
1320.11	63.05
1319.14	62.2
1318.16	62.65
1317.18	62.6
1316.2	61.95
1315.22	61.1
1314.24	61.7
1313.26	60.3
1312.28	60.7
1311.3	61.35
1310.32	60.7
1309.34	60.15
1308.36	60.35
1307.38	60.9
1306.4	60.4
1305.42	58.9
1304.44	60.3
1303.46	60.25
1302.48	59.7
1301.49	58.6
1300.51	59.45
1299.53	58.6
1298.55	59.4
1297.57	59.15
1296.59	58.45
1295.6	57.9
1294.62	57.55
1293.64	57.65
1292.66	58.25
1291.68	57.2
1290.69	56.5
1289.71	57.1
1288.73	57
1287.75	56.05
1286.76	56.45
1285.78	57.1
1284.8	57.15
1283.81	55.4
1282.83	57.85
1281.85	56.8
1280.86	55.7
1279.88	56.15
1278.9	55.95
1277.91	55.9
1276.93	55.4
1275.94	56.4
1274.96	56.6
1273.98	56.3
1272.99	55.55
1272.01	55.7
1271.02	55.4
1270.04	57.3
1269.05	56.6
1268.07	57.4
1267.08	58.15
1266.1	57.65
1265.11	57.45
1264.13	57.2
1263.14	58.6
1262.15	57.75
1261.17	59
1260.18	58.25
1259.2	58.4
1258.21	58.5
1257.22	60.65
1256.24	59.5
1255.25	58.05
1254.26	58.95
1253.28	59.5
1252.29	59.6
1251.3	62.35
1250.32	63
1249.33	66.4
1248.34	70.15
1247.35	75.75
1246.37	82.9
1245.38	89.55
1244.39	98.05
1243.4	102.05
1242.41	102.55
1241.43	101.45
1240.44	97.45
1239.45	91.95
1238.46	84.4
1237.47	78.75
1236.48	75
1235.5	70.55
1234.51	69
1233.52	66.4
1232.53	64.35
1231.54	64.35
1230.55	63.95
1229.56	62.25
1228.57	61.05
1227.58	60.7
1226.59	60.3
1225.6	60.75
1224.61	59.9
1223.62	59.9
1222.63	57.9
1221.64	60.05
1220.65	59.4
1219.66	60.8
1218.67	60.45
1217.68	59
1216.68	59.7
1215.69	59.7
1214.7	60.15
1213.71	60.05
1212.72	59.75
1211.73	59.7
1210.74	59.9
1209.74	60.65
1208.75	58.9
1207.76	59.45
1206.77	60.25
1205.77	61.05
1204.78	59.4
1203.79	61.15
1202.8	59.45
1201.8	59.9
1200.81	59.8
1199.82	60.05
1198.82	59.4
1197.83	60.3
1196.84	59.9
1195.84	60.05
1194.85	60.6
1193.86	60.5
1192.86	59.3
1191.87	59.7
1190.87	59.4
1189.88	60.1
1188.88	59.3
1187.89	58.4
1186.9	59.5
1185.9	59.3
1184.91	59.15
1183.91	59
1182.91	60.3
1181.92	58.7
1180.93	58.3
1179.93	59.05
1178.93	59.1
1177.94	59.25
1176.94	58.4
1175.95	58.95
1174.95	58.25
1173.95	58.15
1172.96	58.6
1171.96	57.45
1170.97	58.25
1169.97	57.6
1168.97	56.9
1167.97	57.7
1166.98	56.7
1165.98	57.1
1164.98	57.15
1163.98	57.45
1162.99	55.95
1161.99	57.5
1160.99	58.2
1159.99	56.6
1159	57.35
1158	57.1
1157	58.15
1156	57.05
1155	58.7
1154.01	58.65
1153.01	57.65
1152.01	59.2
1151.01	61.2
1150.01	61.2
1149.01	62.3
1148.01	64.65
1147.01	66.75
1146.01	67.6
1145.01	69.45
1144.01	71.1
1143.01	71.5
1142.01	72.3
1141.01	74.75
1140.01	77.1
1139.01	76.5
1138.01	78.85
1137.01	78.55
1136.01	77.25
1135.01	77.35
1134.01	74.55
1133.01	74.9
1132	73.15
1131	70.1
1130	69.3
1129	66.05
1128	65.85
1127	65.75
1125.99	63.1
1124.99	62.65
1123.99	61.35
1122.99	60.7
1121.99	59.45
1120.98	59.15
1119.98	60.05
1118.98	58.35
1117.98	58.9
1116.97	59.65
1115.97	58.75
1114.97	59.4
1113.96	59.8
1112.96	59.1
1111.96	57.9
1110.95	58.05
1109.95	57.85
1108.94	57.9
1107.94	59.3
1106.94	58.75
1105.93	58
1104.93	58.3
1103.92	58.15
1102.92	56.6
1101.91	57.5
1100.91	56.2
1099.9	55.05
1098.9	56
1097.89	55
1096.89	54.8
1095.88	55.35
1094.88	55.7
1093.87	54.75
1092.86	54.9
1091.86	54.8
1090.85	55.1
1089.85	54.5
1088.84	54.2
1087.83	55.75
1086.83	56.1
1085.82	56.25
1084.81	56.5
1083.81	56.85
1082.8	56.2
1081.79	56.35
1080.78	56.7
1079.78	55.9
1078.77	55.85
1077.76	55.35
1076.75	55.6
1075.75	56.5
1074.74	56.5
1073.73	56.85
1072.72	56.75
1071.71	56.6
1070.7	57.55
1069.7	57.35
1068.69	57.5
1067.68	57.55
1066.67	57.15
1065.66	57.1
1064.65	55.75
1063.64	55.7
1062.63	54.85
1061.62	54.55
1060.61	55.15
1059.6	54.75
1058.59	54.9
1057.58	54.75
1056.57	54.6
1055.56	55.2
1054.55	55.1
1053.54	54.5
1052.53	53.5
1051.52	55.1
1050.51	55.45
1049.5	55
1048.49	54.6
1047.47	55.15
1046.46	55.85
1045.45	56.05
1044.44	55.55
1043.43	55.85
1042.42	55.4
1041.4	55.85
1040.39	56.75
1039.38	55.25
1038.37	57.65
1037.35	56.5
1036.34	57.95
1035.33	59.1
1034.32	57.2
1033.3	57.8
1032.29	58.95
1031.28	59.85
1030.26	60.1
1029.25	61.3
1028.24	61.05
1027.22	61.15
1026.21	61
1025.19	61.35
1024.18	61.4
1023.17	61.9
1022.15	61.3
1021.14	62.6
1020.12	62.5
1019.11	62.9
1018.09	62.6
1017.08	63.85
1016.06	63.8
1015.05	65.5
1014.03	64.95
1013.02	64.85
1012	64.45
1010.99	65.15
1009.97	65.25
1008.95	65.8
1007.94	66.75
1006.92	65.7
1005.91	67
1004.89	67.1
1003.87	68.1
1002.86	68.95
1001.84	69.3
1000.82	68.05
999.806	70.6
998.788	70.5
997.771	71.8
996.754	71.35
995.737	71.9
994.718	73.85
993.701	74.95
992.683	75.3
991.664	75.8
990.646	78.4
989.629	80.55
988.611	81.4
987.591	84.4
986.573	84.1
985.555	85.85
984.535	86.5
983.516	86.85
982.498	86.9
981.477	87.95
980.458	89.15
979.439	88.55
978.419	88.4
977.399	87.9
976.38	90
975.359	87.65
974.34	87.4
973.32	87.45
972.298	87.1
971.279	87.65
970.259	87.35
969.237	88.15
968.216	88.2
967.196	87.45
966.174	88.6
965.153	89.6
964.133	88.1
963.11	88.65
962.089	89.5
961.068	90.75
960.045	88.6
959.024	90.35
958.001	89.4
956.979	90.65
955.958	90.5
954.934	90.4
953.912	90.45
952.889	91.2
951.867	90.75
950.844	89.85
949.82	90.35
948.798	90.3
947.773	90.3
946.751	90
945.728	88.3
944.703	89.35
943.68	88.95
942.655	89.35
941.632	87.35
940.607	85.55
939.583	85
938.56	81.15
937.534	80.3
936.51	78.05
935.485	74.95
934.461	73.7
933.435	71.25
932.41	70.05
931.384	68.5
930.36	66.2
929.335	66.1
928.308	64.05
927.283	63.4
926.257	61.95
925.231	61.4
924.204	60.1
923.179	59.1
922.152	59.1
921.126	59.7
920.098	60.05
919.073	59.3
918.045	59.75
917.019	59.05
915.991	59.15
914.964	58.3
913.936	57.75
912.91	57.95
911.881	58.15
910.854	57.65
909.826	58.05
908.799	57.5
907.77	57.55
906.742	57.4
905.713	57.6
904.684	56.9
903.656	58.5
902.627	57.65
901.599	57.3
900.569	57.5
899.541	57.95
898.511	58
897.483	57.9
896.452	58.4
895.422	59.15
894.393	58.05
893.362	58.4
892.334	59.85
891.303	60.45
890.274	59.9
889.242	61.15
888.211	63.35
887.182	64.2
886.15	64.9
885.12	66.5
884.089	65.65
883.057	65.8
882.027	66.65
880.995	67.05
879.964	66.5
878.932	66.3
877.9	67
876.869	66.05
875.836	64.7
874.805	65.65
873.772	65.6
872.739	65.6
871.708	65.05
870.675	64.4
869.641	63.8
868.61	62.8
867.576	63.5
866.544	62.1
865.51	60.35
864.476	61.45
863.444	60.85
862.41	59.5
861.376	59.4
860.343	58.65
859.308	58.5
858.274	58.05
857.241	58.7
856.206	57.85
855.171	58.5
854.138	58.15
853.102	58.45
852.067	57.3
851.031	57.8
849.997	58.2
848.962	58.35
847.926	57.5
846.892	59.1
845.856	58.55
844.819	58.9
843.785	59.45
842.748	59.65
841.712	60.05
840.675	60.9
839.64	60.35
838.603	61.4
837.566	60.15
836.529	61.15
835.493	60.4
834.456	60.45
833.418	62
832.382	60.7
831.344	60.85
830.307	61
829.268	61.45
828.232	61.25
827.194	61.6
826.155	62.8
825.117	60.45
824.078	62.2
823.041	62.15
822.002	61.65
820.963	60.8
819.924	61.75
818.887	60.85
817.847	60.85
816.808	60.1
815.768	61.5
814.729	61.85
813.691	61.35
812.651	59.8
811.611	60
810.57	60.65
809.53	60.5
808.491	60
807.451	59.8
806.41	59.45
805.369	60.1
804.328	60.6
803.289	60
802.248	59.35
801.207	59.3
800.165	59.15
799.124	60.35
798.082	61.1
797.042	61.2
796	60.35
794.958	60.6
793.916	60.65
792.874	60.25
791.831	60.3
790.789	60.65
789.748	60.05
788.705	59.95
787.662	58.65
786.619	60.1
785.576	59.25
784.533	58.35
783.49	56.7
782.446	57.65
781.404	57.05
780.361	57.75
779.317	57.25
778.273	56.3
777.229	56.9
776.184	55.4
775.14	56.85
774.096	56.1
773.051	56.3
772.006	56.05
770.964	57.25
769.919	57.5
768.873	56.2
767.828	56.9
766.783	57.55
765.737	58.35
764.692	58.35
763.646	59.45
762.6	59.3
761.555	59.25
760.508	58.7
759.462	59.4
758.416	58.5
757.37	58.45
756.323	59.1
755.278	60.45
754.232	61.55
753.185	62
752.138	62.2
751.091	66.35
750.043	68.15
748.996	72.55
747.948	79.2
746.901	88.5
745.853	102.45
744.805	121.8
743.757	142.55
742.709	162.85
741.661	172.7
740.613	169.5
739.564	153.9
738.516	130
737.467	110.6
736.418	94.8
735.369	81.65
734.32	72.55
733.271	66.85
732.221	63.95
731.172	62.15
730.122	60.3
729.073	58.9
728.023	58.2
726.973	56.8
725.923	57.65
724.873	57
723.82	55.65
722.77	55.3
721.719	56.75
720.669	55.45
719.618	57.45
718.567	55.6
717.516	57.25
716.465	55.65
715.414	57.25
714.362	56.45
713.311	56.95
712.259	55.6
711.207	56.7
710.155	57.05
709.103	55.7
708.049	56.4
706.997	57.45
705.944	56.6
704.892	55.6
703.839	56.4
702.787	55.85
701.734	57.05
700.681	57.9
699.628	57
698.574	57.1
697.519	57.9
696.466	58.45
695.412	59.1
694.358	59.75
693.304	60.4
692.25	61.7
691.196	62.5
690.142	63.3
689.086	65.35
688.031	68.7
686.977	71.95
685.922	76.75
684.867	79.65
683.812	83.75
682.757	86.35
681.7	87.8
680.644	86.5
679.589	86.05
678.533	84.35
677.478	79.95
676.422	76.95
675.364	73.85
674.308	70.85
673.252	68.45
672.195	66.35
671.139	66.1
670.082	65.8
669.024	64.25
667.967	63.45
666.91	63.25
665.853	63.95
664.796	62.05
663.736	61.8
662.679	61.7
661.621	62.55
660.564	61.85
659.504	63
658.446	61.95
657.388	62.45
656.33	62.75
655.272	62.6
654.211	62.9
653.153	63.8
652.094	63.05
651.035	64.25
649.974	63.75
648.915	63.85
647.856	64.65
646.797	63.9
645.735	64.55
644.676	64.1
643.616	64.1
642.556	64.55
641.495	65.6
640.435	66.75
639.374	66.15
638.314	66.15
637.252	65.2
636.191	66
635.131	66
634.068	66.2
633.007	65.85
631.946	66.55
630.885	66.9
629.821	68
628.76	67.65
627.699	67.75
626.635	69.15
625.573	68.5
624.511	69.3
623.447	70.65
622.385	69.65
621.323	72.15
620.26	72
619.196	72.8
618.133	73.25
617.071	73.85
616.006	72.85
614.943	71.75
613.88	70.2
612.814	68.9
611.751	66.65
610.687	65.9
609.622	65.8
608.558	65.7
607.492	64.8
606.428	65.35
605.364	65.15
604.298	66.8
603.233	65.85
602.169	65.7
601.102	65.5
600.038	67.95
598.973	67.15
597.906	67.75
596.841	68.15
595.773	69.75
594.708	70.1
593.642	70.95
592.575	73.15
591.509	71.8
590.441	72.95
589.375	72.8
588.309	71.2
587.241	71.35
586.174	72.3
585.106	72.8
584.039	72.35
582.973	72.95
581.904	73.95
580.837	75
579.768	73.3
578.7	75.3
577.631	75.25
576.563	76.85
575.496	80.15
574.426	81.15
573.358	84.4
572.288	85.95
571.22	86.1
570.15	86
569.081	85.4
568.011	84.3
566.942	84.25
565.874	84.3
564.803	85.75
563.734	86.45
562.662	88
561.593	87.25
560.522	89.4
559.452	92.15
558.381	93.6
557.311	94.1
556.239	96.15
555.169	97.75
554.097	98.55
553.027	100.15
551.954	103
550.884	103.8
549.811	105.25
548.74	105.7
547.667	105.85
546.596	107.5
545.523	108.95
544.452	110.1
543.379	111.45
542.307	116.5
541.233	119.95
540.162	122.5
539.088	127.6
538.016	133.9
536.941	138.9
535.869	145.85
534.795	154.55
533.72	162.95
532.648	171.7
531.573	184.9
530.5	199.3
529.425	216.3
528.352	241.1
527.276	264.9
526.203	300.9
525.127	340.85
524.052	387.05
522.978	434.25
521.902	480.1
520.828	511.3
519.752	510.6
518.677	486.35
517.601	436.75
516.524	381.55
515.45	318.4
514.373	265.05
513.298	221.15
512.221	183.7
511.144	154.25
510.068	131.35
508.991	114.55
507.915	101.35
506.838	90.2
505.76	82.45
504.684	74.4
503.606	68.5
502.528	65.9
501.451	62.4
500.373	59.3
499.296	56.75
498.217	54.1
497.139	52.55
496.062	51.5
494.983	51.2
493.903	49.35
492.826	49.7
491.746	48.1
490.667	46.8
489.589	47.65
488.509	46.25
487.429	46.25
486.351	45.8
485.271	46
484.191	45.8
483.112	45.15
482.031	45.05
480.951	44.9
479.872	44.95
478.791	44.25
477.71	44.65
476.63	44.75
475.549	44.3
474.467	43.65
473.388	43.65
472.306	43.9
471.224	44.4
470.144	43.7
469.062	43.35
467.98	43.3
466.897	43.8
465.817	43.25
464.734	43.5
463.651	43.9
462.57	44.15
461.487	44.55
460.404	44.2
459.321	44.4
458.239	44.6
457.156	44.55
456.072	45.15
454.988	43.65
453.906	45.3
452.822	44.75
451.738	45.55
450.654	45.15
449.571	46.6
448.487	46.5
447.402	46.7
446.317	47.6
445.234	47.25
444.149	48.4
443.064	47.85
441.978	47.15
440.893	48.5
439.809	47.8
438.723	48.55
437.637	49.8
436.551	49.55
435.467	50.7
434.381	49.25
433.295	50.6
432.208	50.7
431.121	51.45
430.037	51.3
428.95	50.25
427.863	51.45
426.776	52.5
425.688	52.1
424.603	53.4
423.515	53.3
422.428	54.45
421.34	54.55
420.252	55.7
419.164	55.5
418.078	56.25
416.989	57.75
415.901	58.75
414.812	59.5
413.724	59.1
412.635	61.4
411.546	63.65
410.459	65.4
409.369	67.25
408.28	66.15
407.191	68.25
406.101	67.1
405.011	67.7
403.921	68.55
402.833	67.1
401.743	68.25
400.653	69.25
399.563	68.05
398.472	68.65
397.381	67.4
396.291	67.8
395.2	66.5
394.111	64.5
393.02	62.95
391.928	60.75
390.837	60.2
389.745	59.05
388.654	57.45
387.562	57.25
386.47	58.05
385.378	57.6
384.285	57.25
383.193	55.55
382.103	56.05
381.01	56.4
379.917	56.6
378.825	55.8
377.732	56.75
376.638	56.45
375.545	56.35
374.452	56.4
373.358	56.2
372.265	57.05
371.171	56.5
370.077	57.3
368.983	57.5
367.889	57.55
366.795	58.05
365.7	58.55
364.606	59.1
363.513	58.45
362.418	59.05
361.323	59.65
360.228	60.4
359.133	60.3
358.038	60.85
356.942	62.25
355.847	64.5
354.751	63.85
353.655	64.8
352.559	65.7
351.463	66.95
350.367	68.2
349.27	68.55
348.174	68.4
347.077	68.7
345.98	70.2
344.884	73.15
343.786	76.25
342.689	79.3
341.592	81
340.495	82.7
339.397	83
338.299	83.2
337.202	83.05
336.102	82.45
335.004	82.8
333.905	85.05
332.807	85.45
331.709	87.75
330.61	88.75
329.511	92.35
328.412	94.45
327.313	95.2
326.214	97.35
325.115	97.65
324.016	95.35
322.916	93.95
321.817	92.25
320.717	93.2
319.617	93.5
318.517	94.65
317.417	96.2
316.314	102.25
315.214	106.9
314.113	109.65
313.013	111.95
311.912	111.15
310.811	112
309.71	110.5
308.609	107.85
307.507	106.55
306.406	104.15
305.304	104.55
304.2	103.8
303.098	105.25
301.996	106
300.894	107.2
299.792	108.15
298.69	110.7
297.587	113.2
296.485	111.75
295.38	110.35
294.277	109.9
293.174	110.85
292.071	109.75
290.967	112.45
289.864	112.75
288.76	112.2
287.656	116
286.551	114.9
285.447	114.65
284.342	113.45
283.238	114.45
282.134	117.45
281.029	121.95
279.923	124.2
278.818	125.4
277.713	125.7
276.608	120.3
275.503	114.25
274.398	107.4
273.29	100.85
272.184	95
271.079	90.15
269.973	86.8
268.867	84.4
267.759	82.85
266.653	80.65
265.546	81.45
264.44	80
263.333	78.7
262.224	77.3
261.117	76.15
260.01	74.65
258.903	74.35
257.796	72.1
256.687	72.65
255.579	69.6
254.471	69.55
253.364	68.95
252.254	68.3
251.145	67.4
250.037	66.25
248.929	66.4
247.82	66.2
246.71	65.45
245.601	65.15
244.492	65.55
243.383	64.55
242.272	65.25
241.163	64.25
240.053	62.95
238.942	64.2
237.832	64.45
236.722	63.15
235.612	63.3
234.5	63.55
233.39	63.55
232.28	63.65
231.169	62.65
230.057	63.4
228.946	63.75
227.835	63.45
226.722	62.4
225.611	63.2
224.499	61.65
223.388	61.35
222.274	60.95
221.163	61.35
220.051	60.45
218.937	59.6
217.825	60.85
216.713	60.6
215.598	60.9
214.486	60.95
213.373	61.55
212.258	60
211.146	60.7
210.033	61.15
208.917	62.1
207.804	61.05
206.691	60.25
205.575	60.7
204.462	59.75
203.348	60.65
202.232	60.3
201.118	60.4
200.003	61.05
198.887	61.35
197.773	61.05
196.658	60.35
195.541	61.3
194.426	61.45
193.311	62.15
192.194	62.05
191.079	63
189.963	63.45
188.846	62.5
187.73	64.15
186.612	63.2
185.496	65.3
184.38	64.45
183.262	64.9
182.146	66.95
181.027	66.45
179.91	68.3
178.794	68.2
177.675	68.4
176.558	69.35
175.438	69.8
174.321	70.9
173.204	71.75
172.084	72.15
170.966	73.45
169.847	74.5
168.729	74.5
167.611	75.65
166.49	76.05
165.372	75.45
164.251	76.8
163.133	76.6
162.012	76.75
160.893	76.55
159.772	76.35
158.653	77
157.533	77.4
156.412	77.5
155.292	77.1
154.171	78.45
153.051	77.65
151.929	76.5
150.809	77.6
149.686	78.55
148.566	76.15
147.443	77.6
146.323	76.65
145.202	76.45
144.079	76.1
142.958	75.95
141.834	76.05
140.713	76
139.59	76.15
138.468	75.9
137.344	75.75
136.222	76.85
135.098	76.15
133.976	77.55
132.852	77.25
131.729	78.4
130.605	79.9
129.482	80.35
128.357	82.2
127.234	83
126.109	85.95
124.986	86.4
123.86	88
122.737	91
121.611	91.55
120.485	91.85
119.361	89.65
118.235	88.5
117.111	87
115.985	85.6
114.86	84.2
113.734	83.1
112.609	81.55
111.482	81.15
110.357	82.35
109.23	81.7
108.103	81.7
106.977	81.1
105.85	80.6
104.724	80.75
103.596	79.55
102.47	79.65
101.342	79.25
100.216	79.5
99.0873	79.2
97.9587	80.75
96.8322	81.35
95.7033	81.4
94.5764	80.15
93.4473	81.8
92.3181	82.55
91.1908	82.3
90.0613	83.1
88.9337	85.3
87.8039	84.6
86.674	84.95
85.546	85.6
84.4158	86.05
83.2876	88
82.1571	89.6
81.0265	88.3
79.8979	88.25
78.767	88.85
77.6381	87.5
76.5069	88.95
75.3756	89.65
74.2463	89.65
73.1147	90.25
71.983	90.1
70.8532	90
69.7213	90.3
68.5891	90.95
67.459	91.25
66.3266	91.95
65.1962	92.1
64.0635	92.25
62.9307	90.95
61.7999	90.55
60.6668	88.9
59.5336	85.95
58.4024	83.95
57.2689	79.45
56.1352	74.1
55.0036	72.75
53.8697	68.55
52.7356	67.65
51.6036	65.6
50.4693	62.3
49.3348	61.4
48.2002	58.85
47.0676	58.05
45.9328	57.65
44.7977	55.5
43.6647	56.4
42.5295	56.7
41.394	57.25
40.2606	57.45
39.1249	58.05
37.9891	58.65
36.8531	59.1
35.7192	58.25
34.5829	57.6
33.4465	56.5
32.3122	52.8
31.1755	50
30.0387	45.8
28.9018	42.25
27.7669	37.5
26.6297	35.05
25.4923	30.85
24.3548	28.25
23.2194	25.15
22.0816	22.15
20.9437	17.75
19.8057	13.85
18.6696	11.75
17.5313	9.75
16.3929	8.65
15.2543	8.05
14.1177	8.4
12.9788	8.4
11.8398	8.95
10.7007	9.7
9.56358	11.35
8.42416	12.5
7.28461	16.45];

backgroundInterp = pchip(dataBackground(:,1),dataBackground(:,2),dataPoint8(:,1));

backgroundSubtracted = dataPoint8(:,2)-1.215.*backgroundInterp;

figure;
plot(dataPoint8(:,1),backgroundInterp,dataPoint8(:,1),dataPoint8(:,2));
title('Raw Signals for Bias and Unbiased');
xlabel('Raman Shift (cm^{-1})'); ylabel('Intensity (Arbitrary Units)');
legend('V_{g} = 0','V_{g} = 0.8');
figure;
plot(dataPoint8(:,1),backgroundSubtracted);
title('Difference of Raman spectra for different gate biases');
xlabel('Raman Shift (cm^{-1})'); ylabel('Intensity (Arbitrary Units)');